Folder: RaMap/Tutorial_Raman_data/References

Note: Tutorial_Raman_data/References/Hematite.txt
48.757	969.26750.718	971.66752.679	974.06754.639	976.73356.598	981.06758.557	985.53360.516	990.26762.475	996.00064.433	999.00066.390	1001.80068.347	1004.60070.304	1009.40072.261	1012.06774.216	1015.26776.172	1017.53378.127	1016.53380.082	1019.86782.036	1020.13383.990	1019.06785.944	1021.60087.897	1018.66789.849	1020.33391.802	1019.53393.753	1025.26795.705	1025.33397.656	1023.40099.607	1023.067101.557	1020.933103.507	1022.267105.456	1024.000107.405	1026.867109.354	1024.067111.302	1024.467113.250	1022.400115.197	1020.000117.144	1018.400119.091	1015.533121.037	1023.867122.983	1019.267124.928	1020.867126.873	1025.800128.817	1023.133130.761	1020.667132.705	1020.400134.649	1021.000136.591	1022.667138.534	1019.467140.476	1023.533142.418	1026.533144.359	1023.933146.300	1026.667148.241	1025.267150.181	1021.933152.120	1024.733154.060	1019.667155.998	1023.667157.937	1025.000159.875	1024.000161.813	1023.333163.750	1024.933165.687	1023.533167.623	1022.000169.559	1022.467171.495	1027.533173.430	1024.267175.365	1029.000177.300	1024.467179.234	1028.933181.167	1027.333183.101	1025.467185.033	1025.400186.966	1026.667188.898	1029.067190.830	1028.800192.761	1031.933194.692	1028.733196.622	1031.267198.552	1036.333200.482	1034.267202.411	1040.600204.340	1036.733206.268	1042.200208.196	1045.333210.124	1053.800212.051	1064.000213.978	1081.400215.904	1111.067217.830	1161.533219.756	1222.800221.681	1287.667223.606	1303.267225.531	1277.600227.455	1223.733229.378	1160.200231.301	1113.800233.224	1095.533235.147	1082.400237.069	1079.200238.990	1089.467240.912	1090.467242.833	1091.467244.753	1087.267246.673	1074.333248.593	1066.200250.512	1061.267252.431	1055.933254.349	1047.400256.267	1051.467258.185	1048.867260.102	1049.133262.019	1051.000263.936	1055.067265.852	1057.200267.767	1060.667269.683	1058.533271.598	1064.867273.512	1074.200275.426	1086.333277.340	1096.000279.253	1109.800281.166	1130.933283.079	1160.733284.991	1200.800286.903	1244.667288.814	1272.600290.725	1278.733292.635	1285.267294.545	1258.333296.455	1238.667298.365	1206.400300.274	1181.867302.182	1150.600304.090	1128.533305.998	1107.267307.906	1093.733309.812	1078.267311.719	1070.267313.625	1064.933315.531	1058.333317.437	1051.800319.342	1047.867321.246	1047.533323.150	1040.733325.054	1043.600326.958	1042.467328.861	1040.467330.764	1041.933332.666	1036.400334.568	1035.533336.469	1038.933338.370	1037.733340.271	1037.267342.171	1037.600344.071	1037.667345.971	1036.467347.870	1038.133349.769	1036.667351.667	1037.933353.565	1035.133355.463	1038.333357.360	1037.133359.257	1035.533361.153	1038.067363.049	1040.467364.945	1040.000366.840	1036.467368.735	1042.267370.629	1043.800372.523	1045.800374.417	1048.533376.310	1051.067378.203	1047.667380.096	1052.933381.988	1053.333383.880	1057.867385.771	1057.533387.662	1065.800389.553	1065.800391.443	10

Note: Tutorial_Raman_data/References/MgO-Cr2O3.txt
48.757	967.00050.718	967.66752.679	969.40054.639	972.46756.598	977.20058.557	981.86760.516	982.60062.475	986.06764.433	987.60066.390	990.20068.347	993.20070.304	995.66772.261	997.13374.216	1000.00076.172	1002.13378.127	1003.20080.082	1004.80082.036	1004.86783.990	1005.13385.944	1002.53387.897	1005.06789.849	1006.06791.802	1008.26793.753	1006.73395.705	1008.93397.656	1010.46799.607	1007.800101.557	1006.000103.507	1010.867105.456	1009.067107.405	1009.933109.354	1008.467111.302	1010.933113.250	1007.933115.197	1006.933117.144	1006.267119.091	1009.200121.037	1006.733122.983	1006.067124.928	1009.600126.873	1010.133128.817	1009.467130.761	1008.800132.705	1007.933134.649	1007.933136.591	1008.600138.534	1006.600140.476	1009.400142.418	1007.800144.359	1006.600146.300	1007.333148.241	1007.267150.181	1008.000152.120	1006.467154.060	1005.267155.998	1008.467157.937	1008.867159.875	1006.400161.813	1003.333163.750	1008.467165.687	1008.067167.623	1008.133169.559	1008.067171.495	1005.200173.430	1011.067175.365	1006.933177.300	1008.467179.234	1007.800181.167	1007.467183.101	1009.533185.033	1010.133186.966	1009.600188.898	1006.200190.830	1008.133192.761	1007.867194.692	1007.800196.622	1008.867198.552	1007.933200.482	1008.533202.411	1007.400204.340	1010.067206.268	1009.467208.196	1008.200210.124	1011.867212.051	1010.533213.978	1014.467215.904	1008.067217.830	1009.533219.756	1010.000221.681	1012.067223.606	1012.533225.531	1014.733227.455	1012.600229.378	1012.933231.301	1012.533233.224	1013.200235.147	1010.800237.069	1012.267238.990	1015.533240.912	1012.733242.833	1014.200244.753	1013.800246.673	1017.933248.593	1035.933250.512	1040.533252.431	1038.533254.349	1031.867256.267	1018.333258.185	1013.467260.102	1011.667262.019	1010.667263.936	1011.800265.852	1012.400267.767	1011.000269.683	1015.000271.598	1011.867273.512	1012.133275.426	1013.533277.340	1012.267279.253	1011.667281.166	1014.733283.079	1009.600284.991	1012.267286.903	1010.200288.814	1013.000290.725	1014.400292.635	1013.200294.545	1012.533296.455	1013.800298.365	1012.600300.274	1011.933302.182	1016.267304.090	1014.933305.998	1012.533307.906	1016.467309.812	1015.133311.719	1020.600313.625	1026.400315.531	1028.733317.437	1027.867319.342	1027.067321.246	1019.000323.150	1016.733325.054	1013.933326.958	1013.000328.861	1012.400330.764	1015.200332.666	1016.200334.568	1015.933336.469	1014.400338.370	1013.467340.271	1014.800342.171	1016.267344.071	1012.333345.971	1016.333347.870	1018.667349.769	1015.400351.667	1016.533353.565	1013.400355.463	1015.800357.360	1019.133359.257	1015.200361.153	1015.067363.049	1013.000364.945	1015.067366.840	1014.467368.735	1010.467370.629	1016.200372.523	1016.267374.417	1013.600376.310	1012.333378.203	1015.067380.096	1014.000381.988	1013.667383.880	1016.267385.771	1013.800387.662	1015.933389.553	1019.000391.443	1016.8

Note: README.md
# RaMap
Workflow for constructing phase maps from Raman spectroscopy data.

File: Cr2O3.txt
#Acq. time (s)=	10
#Accumulations=	30
#Range=	Off
#Autofocus=	Off
#AutoExposure=	Off
#Spike filter=	Multiple accum.
#Delay time (s)=	0
#Binning=	1
#Readout mode=	Signal
#DeNoise=	Off
#ICS correction=	Off
#Dark correction=	Off
#Inst. Process=	Off
#Detector Gain=	Best Dynamic
#Detector ADC=	50 kHz HS
#Detector temperature (°C)=	-75.19
#Instrument=	LabRAM
#Detector=	HJY/EM Detector
#Objective=	x50LWD
#Grating=	600
#Filter=	10%
#Laser (nm)=	532
#Spectro (cm-¹)=	1049.99
#Slit=	100
#Hole=	1000
#StageXY=	Marzhauser
#X (µm)=	0
#Y (µm)=	0
#Full time(mm:ss)=	5:06
#Project=
#Sample=
#Site=
#Title=	D_8
#Remark=
#Date=	16.04.2025 16:40
#Acquired=	16.04.2025 16:40:02
#AxisType[0]=Intens
#AxisUnit[0]=Cnt/sec
#AxisType[1]=Spectr
#AxisUnit[1]=1/cm
164.601	1.51034
171.903	1.61379
179.2	1.57931
186.49	1.66897
193.773	1.65517
201.053	1.71034
208.324	1.77241
215.592	1.82069
222.852	1.85517
230.107	1.81379
237.358	1.84138
244.601	1.8
251.838	1.88965
259.068	1.93103
266.294	2.01379
273.515	2.22069
280.728	2.41379
287.937	2.87586
295.139	3.97241
302.335	4.71035
309.525	3.75172
316.71	2.77241
323.889	2.44828
331.063	2.2069
338.231	2.34483
345.392	3.14483
352.549	3.91035
359.698	2.21379
366.844	1.94483
373.982	1.93793
381.115	2.05517
388.242	2.12414
395.364	2.37931
402.478	2.21379
409.589	2.06207
416.694	1.91724
423.792	2
430.884	1.90345
437.973	1.9931
445.054	2.08966
452.13	2.01379
459.2	2.05517
466.263	2.10345
473.322	2.2
480.376	2.15862
487.423	2.2
494.466	2.27586
501.502	2.28966
508.532	2.42759
515.557	2.72414
522.576	4.43448
529.59	5.69655
536.599	5.16552
543.6	10.9724
550.598	56.9517
557.589	24.9862
564.574	6.54483
571.556	3.72414
578.53	2.90345
585.499	2.62069
592.461	2.44138
599.42	2.67586
606.373	3.89655
613.319	7.08965
620.261	3.08276
627.197	2.29655
634.127	2.14483
641.051	2.1931
647.971	2.02759
654.885	1.95172
661.794	2.07586
668.697	1.93793
675.594	1.89655
682.485	1.93103
689.372	1.92414
696.253	1.84828
703.128	1.87586
709.999	1.91724
716.863	1.81379
723.723	1.73103
730.576	1.66207
737.425	1.66897
744.267	1.68276
751.104	1.67586
757.938	1.63448
764.765	1.68966
771.584	1.61379
778.4	1.66207
785.211	1.58621
792.017	1.66207
798.816	1.64138
805.61	1.68966
812.4	1.53793
819.184	1.53793
825.962	1.50345
832.736	1.43448
839.502	1.42759
846.265	1.42069
853.023	1.35862
859.774	1.37241
866.519	1.28966
873.262	1.35172
879.998	1.41379
886.728	1.29655
893.454	1.42069
900.172	1.32414
906.888	1.35172
913.596	1.35172
920.302	1.28966
927	1.38621
933.693	1.28276
940.382	1.31724
947.065	1.24138
953.744	1.2
960.415	1.24138
967.083	1.22069
973.745	1.29655
980.403	1.22069
987.055	1.31724
993.701	1.17931
1000.34	1.21379
1006.98	1.22759
1013.61	1.17931
1020.24	1.17931
1026.86	1.21379
1033.47	1.33103
1040.08	1.37241
1046.69	1.38621
1053.29	1.44828
1059.88	1.33103
1066.47	1.29655
1073.06	1.26897
1079.64	1.22069
1086.21	1.1931
1092.78	1.24138
1099.34	1.15172
1105.9	1.18621
1112.46	1.2
1119.01	1.08276
1125.55	1.15862
1132.09	1.14483
1138.62	1.15862
1145.15	1.13793
1151.68	1.11724
1158.19	1.15862
1164.71	1.16552
1171.22	1.2
1177.72	1.18621
1184.22	1.23448
1190.71	1.2069
1197.2	1.31724
1203.68	1.18621
1210.16	1.13103
1216.63	1.11034
1223.1	1.13793
1229.56	1.15172
1236.02	1.12414
1242.48	1.10345
1248.92	1.06207
1255.37	1.05517
1261.81	1.06207
1268.24	1.04138
1274.67	1.07586
1281.09	1.09655
1287.51	1.1931
1293.92	1.24828
1300.33	1.17931
1306.74	1.24828
1313.14	1.1931
1319.53	1.13793
1325.92	0.972414
1332.3	1.08276
1338.68	1.08276
1345.05	1.09655
1351.42	1.25517
1357.79	1.26207
1364.15	1.28276
1370.5	1.37931
1376.85	1.48276
1383.2	1.54483
1389.54	1.43448
1395.87	1.44828
1402.2	1.37241
1408.53	1.32414
1414.85	1.37931
1421.16	1.37241
1427.47	1.31034
1433.78	1.31034
1440.08	1.2069
1446.38	1.17241
1452.67	1.05517
1458.96	0.924138
1465.24	0.862069
1471.52	0.882759
1477.79	0.82069
1484.06	0.827586
1490.32	0.793104
1496.58	0.710345
1502.83	0.765517
1509.08	0.675862
1515.32	0.696552
1521.56	0.77931
1527.8	0.724138
1534.03	0.724138
1540.25	0.710345
1546.47	0.668966
1552.69	0.724138
1558.9	0.62069
1565.1	0.717241
1571.3	0.682759
1577.5	0.62069
1583.69	0.703448
1589.88	0.627586
1596.06	0.648276
1602.24	0.641379
1608.41	0.641379
1614.58	0.675862
1620.74	0.586207
1626.9	0.586207
1633.06	0.648276
1639.21	0.682759
1645.35	0.593104
1651.49	0.613793
1657.63	0.662069
1663.76	0.696552
1669.89	0.675862
1676.01	0.668966
1682.13	0.648276
1688.24	0.62069
1694.35	0.6
1700.45	0.593103
1706.55	0.662069
1712.64	0.641379
1718.73	0.606897
1724.82	0.662069
1730.9	0.468966
1736.97	0.558621
1743.04	0.641379
1749.11	0.558621
1755.17	0.593103
1761.23	0.627586
1767.28	0.537931
1773.33	0.572414
1779.38	0.572414
1785.42	0.593104
1791.45	0.565517
1797.48	0.586207
1803.51	0.517241
1809.53	0.496552
1815.54	0.544828
1821.56	0.544828
1827.56	0.572414
1833.57	0.537931
1839.56	0.517241
1845.56	0.572414
1851.55	0.558621
1856.04	0.593103

File: Fe2O3_Cr2O3.csv
48.770;970.900
56.611;1028.400
64.445;1086.600
72.273;1142.300
80.095;1166.400
87.909;1167.600
95.718;1165.900
103.519;1184.000
111.315;1191.200
119.103;1167.500
126.885;1169.400
134.661;1170.000
142.430;1153.600
150.193;1165.700
157.950;1156.300
165.699;1164.700
173.443;1161.700
181.180;1167.700
188.910;1156.000
196.635;1153.700
204.352;1145.000
212.064;1149.400
219.769;1143.100
227.467;1150.500
235.159;1138.900
242.845;1139.200
250.524;1143.500
258.197;1136.300
265.864;1140.100
273.525;1154.000
281.179;1144.500
288.826;1149.800
296.468;1144.200
304.103;1148.900
311.731;1142.800
319.354;1147.500
326.970;1153.300
334.580;1150.400
342.184;1155.600
349.781;1154.300
357.372;1152.300
364.957;1151.700
372.536;1154.800
380.108;1163.400
387.674;1159.200
395.234;1162.800
402.788;1163.800
410.335;1149.700
417.877;1156.400
425.412;1152.700
432.941;1163.500
440.464;1148.000
447.980;1159.200
455.491;1161.000
462.995;1152.300
470.493;1163.700
477.985;1175.200
485.471;1179.500
492.951;1200.000
500.425;1229.400
507.892;1247.700
515.354;1252.500
522.809;1278.300
530.259;1289.300
537.702;1284.300
545.139;1259.800
552.570;1246.600
559.995;1232.200
567.414;1224.400
574.827;1206.800
582.234;1198.700
589.635;1191.600
597.030;1203.600
604.419;1217.000
611.802;1239.800
619.179;1270.900
626.550;1301.900
633.915;1330.400
641.274;1345.700
648.627;1386.900
655.974;1435.500
663.315;1467.600
670.650;1450.300
677.979;1407.400
685.303;1358.200
692.620;1390.600
699.932;1408.200
707.237;1438.400
714.537;1460.000
721.831;1469.400
729.119;1384.600
736.401;1271.100
743.677;1199.900
750.947;1158.900
758.211;1147.500
765.470;1141.000
772.723;1121.300
779.970;1116.900
787.211;1112.400
794.446;1106.700
801.675;1094.000
808.899;1096.100
816.117;1095.700
823.329;1090.800
830.535;1090.000
837.736;1081.400
844.930;1088.900
852.119;1090.800
859.302;1091.400
866.480;1082.800
873.651;1080.400
880.817;1083.800
887.977;1085.800
895.132;1079.700
902.281;1081.500
909.424;1082.000
916.561;1076.100
923.693;1075.000
930.819;1076.800
937.939;1071.800
945.054;1073.900
952.163;1068.800
959.266;1073.600
966.363;1067.100
973.455;1067.500
980.542;1067.100
987.622;1071.000
994.697;1071.300
1001.742;1066.400
1008.708;1074.900
1015.668;1066.500
1022.623;1074.600
1029.572;1073.100
1036.516;1070.700
1043.455;1078.200
1050.388;1079.500
1057.315;1079.400
1064.237;1080.700
1071.154;1076.400
1078.066;1080.500
1084.972;1073.300
1091.872;1077.600
1098.768;1078.300
1105.657;1082.200
1112.542;1078.500
1119.421;1080.400
1126.295;1082.500
1133.163;1073.100
1140.027;1072.800
1146.884;1085.300
1153.737;1074.700
1160.584;1083.200
1167.426;1076.200
1174.262;1073.300
1181.093;1075.400
1187.919;1083.600
1194.740;1083.900
1201.555;1080.600
1208.365;1085.600
1215.170;1085.600
1221.970;1078.300
1228.764;1081.600
1235.553;1086.600
1242.337;1075.500
1249.115;1082.800
1255.888;1083.200
1262.656;1082.600
1269.419;1078.200
1276.177;1077.600
1282.929;1083.600
1289.676;1080.100
1296.418;1084.300
1303.155;1081.600
1309.887;1080.600
1316.613;1083.200
1323.334;1086.900
1330.051;1084.500
1336.761;1091.700
1343.467;1084.000
1350.168;1077.400
1356.863;1080.900
1363.554;1081.700
1370.239;1080.800
1376.919;1075.000
1383.594;1079.600
1390.264;1080.600
1396.928;1077.100
1403.588;1083.000
1410.242;1074.200
1416.892;1075.100
1423.536;1076.100
1430.175;1067.700
1436.810;1069.200
1443.439;1071.200
1450.063;1067.800
1456.682;1068.600
1463.296;1066.900
1469.904;1064.300
1476.508;1060.000
1483.107;1062.800
1489.701;1058.600
1496.290;1058.000
1502.873;1059.400
1509.452;1057.300
1516.026;1061.400
1522.594;1061.900
1529.158;1061.000
1535.717;1063.800
1542.271;1056.200
1548.819;1064.600
1555.363;1057.100
1561.902;1056.000
1568.436;1053.000
1574.965;1057.400
1581.489;1054.700
1588.008;1056.500
1594.522;1054.400
1601.031;1055.800
1607.535;1048.000
1614.034;1052.500
1620.529;1049.700
1627.018;1048.700
1633.503;1048.200
1639.983;1049.100
1646.457;1046.700
1652.927;1046.000
1659.392;1042.300
1665.852;1044.000
1672.308;1043.300
1678.758;1047.800
1685.203;1040.200
1691.644;1042.200
1698.080;1040.200
1704.511;1041.300
1710.937;1037.100
1717.358;1035.700
1723.775;1040.800
1730.187;1037.000
1736.593;1040.500
1742.995;1036.300
1749.393;1038.200
1755.785;1037.800
1762.173;1035.400
1768.555;1031.100
1774.934;1038.400
1781.307;1037.000
1787.675;1038.200
1794.039;1038.300
1800.398;1034.000
1806.752;1035.600
1813.102;1031.200
1819.446;1036.900
1825.786;1032.200
1832.122;1034.200
1838.452;1039.100
1844.778;1039.500
1849.519;1027.900